USUBJID,PARAMCD,AVISITN,AVISIT,AVAL,BASE,CHG,ANL01FL
ABC-001,HBA1C,0,Baseline,8.2,8.2,0.0,N
ABC-002,HBA1C,0,Baseline,7.9,7.9,0.0,N
ABC-003,HBA1C,0,Baseline,8.5,8.5,0.0,N
ABC-004,HBA1C,0,Baseline,8.1,8.1,0.0,N
ABC-005,HBA1C,0,Baseline,8.4,8.4,0.0,N
ABC-006,HBA1C,0,Baseline,8.3,8.3,0.0,N
ABC-007,HBA1C,0,Baseline,8.0,8.0,0.0,N
ABC-008,HBA1C,0,Baseline,8.6,8.6,0.0,N
ABC-009,HBA1C,0,Baseline,8.2,8.2,0.0,N
ABC-010,HBA1C,0,Baseline,8.1,8.1,0.0,N
ABC-001,HBA1C,12,Week 12,8.0,8.2,-0.2,Y
ABC-002,HBA1C,12,Week 12,7.8,7.9,-0.1,Y
ABC-003,HBA1C,12,Week 12,8.3,8.5,-0.2,Y
ABC-004,HBA1C,12,Week 12,8.0,8.1,-0.1,Y
ABC-005,HBA1C,12,Week 12,8.2,8.4,-0.2,Y
ABC-006,HBA1C,12,Week 12,7.8,8.3,-0.5,Y
ABC-007,HBA1C,12,Week 12,7.5,8.0,-0.5,Y
ABC-008,HBA1C,12,Week 12,8.0,8.6,-0.6,Y
ABC-009,HBA1C,12,Week 12,7.7,8.2,-0.5,Y
ABC-010,HBA1C,12,Week 12,7.6,8.1,-0.5,Y

