USUBJID,SITEID,TRT01P,SAFFL,FASFL,SEX,AGE,BASE_HBA1C
ABC-001,101,Placebo,Y,Y,F,54,8.2
ABC-002,101,Placebo,Y,Y,M,61,7.9
ABC-003,102,Placebo,Y,Y,F,48,8.5
ABC-004,102,Placebo,Y,Y,M,57,8.1
ABC-005,103,Placebo,Y,Y,F,63,8.4
ABC-006,101,ABC-201,Y,Y,F,52,8.3
ABC-007,101,ABC-201,Y,Y,M,59,8.0
ABC-008,102,ABC-201,Y,Y,F,46,8.6
ABC-009,102,ABC-201,Y,Y,M,55,8.2
ABC-010,103,ABC-201,Y,Y,F,60,8.1

